* Sea-Bird SBE 19plus Data File:
* FileName = C:\Sea-Bird Data\2014\DY1405\Casts\BON005.hex
* Software Version Seasave V 7.22.3
* Temperature SN = 4530
* Conductivity SN = 4530
* System UpLoad Time = May 07 2014 21:40:28
* Real-Time Sample Interval = 0.2500 seconds
* System UTC = May 07 2014 21:40:28
# nquan = 7                                 
# nvalues = 255                         
# units = specified
# name 0 = timeS: Time, Elapsed [seconds]
# name 1 = prdM: Pressure, Strain Gauge [db]
# name 2 = tv290C: Temperature [ITS-90, deg C]
# name 3 = c0mS/cm: Conductivity [mS/cm]
# name 4 = sal00: Salinity, Practical [PSU]
# name 5 = sigma-t00: Density [sigma-t, Kg/m^3 ]
# name 6 = flag: flag
# span 0 =    191.624,   1140.175       
# span 1 =      1.000,    128.000       
# span 2 =     4.1848,     5.0429       
# span 3 =  25.046631,  30.761030       
# span 4 =    25.3970,    32.6210       
# span 5 =    20.0681,    25.8756       
# span 6 = 0.0000e+00, 0.0000e+00       
# interval = decibars: 1                
# start_time = May 07 2014 21:40:28 [System UTC, header]
# bad_flag = -9.990e-29
# <Sensors count="3" >
#   <sensor Channel="1" >
#     <!-- Count, Temperature -->
#     <TemperatureSensor SensorID="58" >
#       <SerialNumber>4530</SerialNumber>
#       <CalibrationDate>03-Dec-13</CalibrationDate>
#       <A0>1.22471000e-003</A0>
#       <A1>2.66234600e-004</A1>
#       <A2>-3.25282000e-007</A2>
#       <A3>1.63905300e-007</A3>
#       <Slope>1.00000000</Slope>
#       <Offset>0.0000</Offset>
#     </TemperatureSensor>
#   </sensor>
#   <sensor Channel="2" >
#     <!-- Frequency 0, Conductivity -->
#     <ConductivitySensor SensorID="3" >
#       <SerialNumber>4530</SerialNumber>
#       <CalibrationDate>03-Dec-13</CalibrationDate>
#       <UseG_J>1</UseG_J>
#       <!-- Cell const and series R are applicable only for wide range sensors. -->
#       <SeriesR>0.0000</SeriesR>
#       <CellConst>2000.0000</CellConst>
#       <ConductivityType>0</ConductivityType>
#       <Coefficients equation="0" >
#         <A>0.00000000e+000</A>
#         <B>0.00000000e+000</B>
#         <C>0.00000000e+000</C>
#         <D>0.00000000e+000</D>
#         <M>0.0</M>
#         <CPcor>-9.57000000e-008</CPcor>
#       </Coefficients>
#       <Coefficients equation="1" >
#         <G>-9.84131900e-001</G>
#         <H>1.41458700e-001</H>
#         <I>-1.92288200e-004</I>
#         <J>3.59848200e-005</J>
#         <CPcor>-9.57000000e-008</CPcor>
#         <CTcor>3.2500e-006</CTcor>
#         <!-- WBOTC not applicable unless ConductivityType = 1. -->
#         <WBOTC>0.00000000e+000</WBOTC>
#       </Coefficients>
#       <Slope>1.00000000</Slope>
#       <Offset>0.00000</Offset>
#     </ConductivitySensor>
#   </sensor>
#   <sensor Channel="3" >
#     <!-- Count, Pressure, Strain Gauge -->
#     <PressureSensor SensorID="46" >
#       <SerialNumber>4530</SerialNumber>
#       <CalibrationDate>02-Dec-13</CalibrationDate>
#       <PA0>-3.35712300e-001</PA0>
#       <PA1>1.56795400e-002</PA1>
#       <PA2>-6.60390500e-010</PA2>
#       <PTEMPA0>-6.74611800e+001</PTEMPA0>
#       <PTEMPA1>5.06446900e+001</PTEMPA1>
#       <PTEMPA2>-4.65162800e-001</PTEMPA2>
#       <PTCA0>5.24503600e+005</PTCA0>
#       <PTCA1>-3.17070100e-002</PTCA1>
#       <PTCA2>-4.70494400e-002</PTCA2>
#       <PTCB0>2.49031200e+001</PTCB0>
#       <PTCB1>-5.75000000e-004</PTCB1>
#       <PTCB2>0.00000000e+000</PTCB2>
#       <Offset>0.000000</Offset>
#     </PressureSensor>
#   </sensor>
# </Sensors>
# datcnv_date = May 08 2014 20:25:11, 7.22.2 [datcnv_vars = 4]
# datcnv_in = c:\data\seacat\current\bon005.hex c:\data\seacat\current\bon005.XMLCON
# datcnv_skipover = 0
# filter_date = May 08 2014 20:25:12, 7.22.2
# filter_in = c:\data\seacat\current\bon005.cnv
# filter_low_pass_tc_A = 0.500
# filter_low_pass_tc_B = 2.000
# filter_low_pass_A_vars = prdM tv290C c0mS/cm
# filter_low_pass_B_vars =
# alignctd_date = May 08 2014 20:25:12, 7.22.2
# alignctd_in = c:\data\seacat\current\bon005.cnv
# alignctd_adv = tv290C 0.500                                                                                                                                                                                                        
# wildedit_date = May 08 2014 20:25:12, 7.22.2
# wildedit_in = c:\data\seacat\current\bon005.cnv
# wildedit_pass1_nstd = 2.0
# wildedit_pass2_nstd = 15.0
# wildedit_pass2_mindelta = 1.000e-002
# wildedit_npoint = 100
# wildedit_vars = prdM tv290C c0mS/cm
# wildedit_excl_bad_scans = yes
# binavg_date = May 08 2014 20:25:12, 7.22.2
# binavg_in = c:\data\seacat\current\bon005.cnv
# binavg_bintype = decibars
# binavg_binsize = 1
# binavg_excl_bad_scans = yes
# binavg_skipover = 0
# binavg_surface_bin = no, min = 0.000, max = 0.500, value = 0.000
# Derive_date = May 08 2014 20:25:12, 7.22.2 [derive_vars = 2]
# Derive_in = c:\data\seacat\current\bon005.cnv c:\data\seacat\current\BON005.XMLcon
# file_type = ascii
*END*
    191.624      1.000     5.0429  25.046631    25.3970    20.0681 0.0000e+00
    195.195      2.000     4.8155  30.749845    32.0544    25.3605 0.0000e+00
    200.011      3.000     4.8609  30.510219    31.7344    25.1020 0.0000e+00
    205.382      4.000     4.9020  30.590270    31.7866    25.1390 0.0000e+00
    207.567      5.000     4.9389  30.592256    31.7532    25.1086 0.0000e+00
    209.336      6.000     4.8739  30.603940    31.8282    25.1750 0.0000e+00
    210.976      7.000     4.9038  30.633849    31.8335    25.1760 0.0000e+00
    212.830      8.000     4.8758  30.641437    31.8686    25.2068 0.0000e+00
    215.068      9.000     4.8425  30.656321    31.9172    25.2488 0.0000e+00
    217.123     10.000     4.8844  30.679445    31.9030    25.2332 0.0000e+00
    219.131     11.000     4.9023  30.676143    31.8816    25.2142 0.0000e+00
    221.460     12.000     4.8954  30.658267    31.8671    25.2035 0.0000e+00
    223.785     13.000     4.8512  30.614333    31.8585    25.2014 0.0000e+00
    225.580     14.000     4.9240  30.614633    31.7886    25.1383 0.0000e+00
    227.784     15.000     4.8850  30.601225    31.8100    25.1594 0.0000e+00
    229.605     16.000     4.8443  30.601820    31.8492    25.1948 0.0000e+00
    231.471     17.000     4.7334  30.460296    31.7920    25.1612 0.0000e+00
    233.644     18.000     4.5924  30.353655    31.8036    25.1851 0.0000e+00
    235.304     19.000     4.5986  30.362796    31.8077    25.1877 0.0000e+00
    237.400     20.000     4.5996  30.367770    31.8120    25.1910 0.0000e+00
    239.800     21.000     4.6003  30.373025    31.8169    25.1949 0.0000e+00
    241.655     22.000     4.6006  30.378521    31.8225    25.1992 0.0000e+00
    243.885     23.000     4.6008  30.381707    31.8255    25.2016 0.0000e+00
    246.591     24.000     4.6006  30.384845    31.8288    25.2043 0.0000e+00
    248.767     25.000     4.6010  30.393826    31.8384    25.2118 0.0000e+00
    251.066     26.000     4.6101  30.429921    31.8709    25.2366 0.0000e+00
    253.535     27.000     4.6224  30.466349    31.9007    25.2590 0.0000e+00
    256.066     28.000     4.6259  30.474109    31.9058    25.2627 0.0000e+00
    258.629     29.000     4.6269  30.476099    31.9067    25.2633 0.0000e+00
    261.110     30.000     4.6309  30.485024    31.9126    25.2676 0.0000e+00
    263.650     31.000     4.6376  30.499553    31.9225    25.2747 0.0000e+00
    266.235     32.000     4.6386  30.501896    31.9237    25.2756 0.0000e+00
    268.789     33.000     4.6374  30.499828    31.9220    25.2743 0.0000e+00
    271.605     34.000     4.6397  30.506981    31.9276    25.2785 0.0000e+00
    273.684     35.000     4.6437  30.518581    31.9366    25.2853 0.0000e+00
    277.101     36.000     4.6494  30.535578    31.9503    25.2955 0.0000e+00
    279.713     37.000     4.6510  30.541048    31.9546    25.2988 0.0000e+00
    282.455     38.000     4.6539  30.551357    31.9632    25.3053 0.0000e+00
    285.807     39.000     4.6566  30.560939    31.9712    25.3113 0.0000e+00
    288.409     40.000     4.6577  30.563578    31.9727    25.3124 0.0000e+00
    291.814     41.000     4.6612  30.575886    31.9830    25.3203 0.0000e+00
    294.323     42.000     4.6678  30.609089    32.0146    25.3446 0.0000e+00
    298.135     43.000     4.6640  30.617283    32.0272    25.3550 0.0000e+00
    300.745     44.000     4.6570  30.615112    32.0310    25.3587 0.0000e+00
    303.405     45.000     4.6533  30.618165    32.0376    25.3643 0.0000e+00
    306.834     46.000     4.6504  30.621467    32.0437    25.3695 0.0000e+00
    309.293     47.000     4.6468  30.625105    32.0509    25.3756 0.0000e+00
    312.773     48.000     4.6428  30.629771    32.0597    25.3830 0.0000e+00
    315.615     49.000     4.6369  30.634480    32.0703    25.3920 0.0000e+00
    319.677     50.000     4.6347  30.636270    32.0740    25.3952 0.0000e+00
    322.667     51.000     4.6324  30.638087    32.0779    25.3985 0.0000e+00
    326.196     52.000     4.6311  30.639476    32.0802    25.4005 0.0000e+00
    329.808     53.000     4.6272  30.642061    32.0865    25.4059 0.0000e+00
    333.158     54.000     4.6186  30.647601    32.1008    25.4181 0.0000e+00
    336.841     55.000     4.6125  30.650523    32.1096    25.4257 0.0000e+00
    339.328     56.000     4.6078  30.652082    32.1154    25.4309 0.0000e+00
    342.323     57.000     4.6059  30.652760    32.1176    25.4327 0.0000e+00
    345.229     58.000     4.6037  30.653460    32.1200    25.4349 0.0000e+00
    347.757     59.000     4.6015  30.654361    32.1227    25.4373 0.0000e+00
    351.005     60.000     4.5979  30.655736    32.1273    25.4413 0.0000e+00
    354.679     61.000     4.5946  30.656260    32.1306    25.4442 0.0000e+00
    358.531     62.000     4.5925  30.656755    32.1327    25.4461 0.0000e+00
    362.093     63.000     4.5903  30.657575    32.1353    25.4484 0.0000e+00
    364.809     64.000     4.5868  30.658353    32.1391    25.4518 0.0000e+00
    367.751     65.000     4.5836  30.659087    32.1425    25.4549 0.0000e+00
    369.996     66.000     4.5808  30.659691    32.1454    25.4575 0.0000e+00
    372.601     67.000     4.5759  30.660476    32.1506    25.4621 0.0000e+00
    375.148     68.000     4.5710  30.660712    32.1552    25.4662 0.0000e+00
    377.354     69.000     4.5689  30.661126    32.1572    25.4680 0.0000e+00
    379.680     70.000     4.5692  30.661373    32.1567    25.4676 0.0000e+00
    381.819     71.000     4.5688  30.661841    32.1571    25.4680 0.0000e+00
    384.563     72.000     4.5660  30.662020    32.1595    25.4702 0.0000e+00
    386.786     73.000     4.5623  30.661552    32.1621    25.4726 0.0000e+00
    388.802     74.000     4.5558  30.659324    32.1653    25.4758 0.0000e+00
    391.041     75.000     4.5513  30.658176    32.1678    25.4783 0.0000e+00
    393.491     76.000     4.5475  30.657492    32.1702    25.4806 0.0000e+00
    395.298     77.000     4.5447  30.657283    32.1722    25.4825 0.0000e+00
    397.442     78.000     4.5382  30.655254    32.1757    25.4859 0.0000e+00
    399.863     79.000     4.5281  30.650790    32.1798    25.4902 0.0000e+00
    401.832     80.000     4.5245  30.649632    32.1815    25.4919 0.0000e+00
    403.975     81.000     4.5217  30.649312    32.1833    25.4937 0.0000e+00
    406.067     82.000     4.5150  30.648774    32.1887    25.4987 0.0000e+00
    408.071     83.000     4.5096  30.648555    32.1932    25.5028 0.0000e+00
    410.124     84.000     4.5051  30.648907    32.1975    25.5067 0.0000e+00
    412.187     85.000     4.4960  30.649429    32.2065    25.5147 0.0000e+00
    414.418     86.000     4.4909  30.649387    32.2109    25.5188 0.0000e+00
    416.602     87.000     4.4877  30.649102    32.2132    25.5209 0.0000e+00
    418.380     88.000     4.4791  30.648958    32.2209    25.5279 0.0000e+00
    420.292     89.000     4.4642  30.648317    32.2342    25.5400 0.0000e+00
    422.710     90.000     4.4550  30.647419    32.2416    25.5468 0.0000e+00
    424.795     91.000     4.4469  30.646972    32.2485    25.5531 0.0000e+00
    426.870     92.000     4.4370  30.646784    32.2575    25.5613 0.0000e+00
    428.828     93.000     4.4230  30.647615    32.2716    25.5739 0.0000e+00
    430.941     94.000     4.4123  30.650638    32.2851    25.5857 0.0000e+00
    433.183     95.000     4.4055  30.652321    32.2932    25.5929 0.0000e+00
    434.915     96.000     4.3969  30.653995    32.3031    25.6016 0.0000e+00
    437.137     97.000     4.3884  30.656337    32.3136    25.6108 0.0000e+00
    439.518     98.000     4.3789  30.660257    32.3270    25.6224 0.0000e+00
    441.522     99.000     4.3697  30.664673    32.3407    25.6342 0.0000e+00
    443.570    100.000     4.3632  30.668235    32.3507    25.6428 0.0000e+00
    445.783    101.000     4.3572  30.670142    32.3583    25.6495 0.0000e+00
    447.871    102.000     4.3500  30.674405    32.3698    25.6594 0.0000e+00
    450.106    103.000     4.3433  30.678909    32.3811    25.6690 0.0000e+00
    452.340    104.000     4.3381  30.680783    32.3879    25.6750 0.0000e+00
    454.418    105.000     4.3353  30.682001    32.3916    25.6782 0.0000e+00
    456.689    106.000     4.3327  30.684350    32.3964    25.6822 0.0000e+00
    459.040    107.000     4.3278  30.687349    32.4042    25.6889 0.0000e+00
    461.347    108.000     4.3224  30.690909    32.4132    25.6966 0.0000e+00
    463.520    109.000     4.3198  30.693774    32.4186    25.7012 0.0000e+00
    465.529    110.000     4.3164  30.696470    32.4246    25.7063 0.0000e+00
    467.843    111.000     4.3099  30.700595    32.4353    25.7154 0.0000e+00
    470.301    112.000     4.3054  30.703224    32.4423    25.7214 0.0000e+00
    472.257    113.000     4.3000  30.706054    32.4504    25.7284 0.0000e+00
    474.441    114.000     4.2922  30.710154    32.4623    25.7387 0.0000e+00
    477.036    115.000     4.2899  30.711333    32.4655    25.7414 0.0000e+00
    479.141    116.000     4.2884  30.712329    32.4676    25.7433 0.0000e+00
    481.327    117.000     4.2854  30.714359    32.4724    25.7474 0.0000e+00
    483.593    118.000     4.2827  30.716025    32.4765    25.7510 0.0000e+00
    486.139    119.000     4.2804  30.717479    32.4800    25.7539 0.0000e+00
    488.636    120.000     4.2765  30.719740    32.4860    25.7591 0.0000e+00
    490.916    121.000     4.2684  30.723803    32.4982    25.7696 0.0000e+00
    493.273    122.000     4.2535  30.730879    32.5207    25.7890 0.0000e+00
    496.228    123.000     4.2420  30.735990    32.5375    25.8035 0.0000e+00
    498.676    124.000     4.2343  30.739420    32.5487    25.8132 0.0000e+00
    501.269    125.000     4.2245  30.744302    32.5636    25.8260 0.0000e+00
    504.918    126.000     4.2104  30.750359    32.5841    25.8437 0.0000e+00
    507.072    127.000     4.1945  30.756881    32.6070    25.8635 0.0000e+00
    511.241    128.000     4.1848  30.761030    32.6210    25.8756 0.0000e+00
    514.826    127.000     4.1969  30.755380    32.6029    25.8600 0.0000e+00
    521.673    126.000     4.2186  30.745762    32.5706    25.8322 0.0000e+00
    525.194    125.000     4.2347  30.738435    32.5466    25.8115 0.0000e+00
    527.211    124.000     4.2425  30.734764    32.5351    25.8016 0.0000e+00
    530.211    123.000     4.2610  30.726311    32.5074    25.7777 0.0000e+00
    532.708    122.000     4.2753  30.719581    32.4860    25.7592 0.0000e+00
    535.225    121.000     4.2826  30.716001    32.4751    25.7498 0.0000e+00
    538.446    120.000     4.2871  30.713777    32.4686    25.7442 0.0000e+00
    541.632    119.000     4.2891  30.712543    32.4656    25.7417 0.0000e+00
    545.228    118.000     4.2907  30.711507    32.4634    25.7397 0.0000e+00
    548.515    117.000     4.2914  30.710738    32.4623    25.7388 0.0000e+00
    551.789    116.000     4.2921  30.709893    32.4611    25.7378 0.0000e+00
    555.572    115.000     4.2935  30.708828    32.4590    25.7359 0.0000e+00
    559.053    114.000     4.2967  30.706858    32.4541    25.7317 0.0000e+00
    563.292    113.000     4.3005  30.704618    32.4482    25.7267 0.0000e+00
    567.179    112.000     4.3026  30.703244    32.4450    25.7239 0.0000e+00
    572.149    111.000     4.3061  30.701091    32.4396    25.7192 0.0000e+00
    578.283    110.000     4.3096  30.698930    32.4341    25.7145 0.0000e+00
    585.591    109.000     4.3159  30.695192    32.4241    25.7059 0.0000e+00
    595.067    108.000     4.3177  30.694007    32.4214    25.7036 0.0000e+00
    607.452    107.000     4.3161  30.694491    32.4241    25.7059 0.0000e+00
    625.030    106.000     4.3143  30.695147    32.4271    25.7085 0.0000e+00
    637.931    105.000     4.3171  30.693189    32.4226    25.7046 0.0000e+00
    653.308    104.000     4.3228  30.688979    32.4126    25.6961 0.0000e+00
    681.808    103.000     4.3441  30.677504    32.3787    25.6670 0.0000e+00
    695.628    102.000     4.3661  30.666426    32.3447    25.6378 0.0000e+00
    705.296    101.000     4.3756  30.662913    32.3318    25.6266 0.0000e+00
    712.613    100.000     4.3801  30.660116    32.3246    25.6204 0.0000e+00
    718.356     99.000     4.3851  30.657016    32.3166    25.6135 0.0000e+00
    723.797     98.000     4.3881  30.655242    32.3121    25.6097 0.0000e+00
    728.608     97.000     4.3909  30.653654    32.3080    25.6061 0.0000e+00
    733.047     96.000     4.3945  30.651737    32.3028    25.6016 0.0000e+00
    738.159     95.000     4.4017  30.648382    32.2923    25.5926 0.0000e+00
    742.144     94.000     4.4036  30.647314    32.2897    25.5903 0.0000e+00
    746.791     93.000     4.4064  30.645938    32.2859    25.5870 0.0000e+00
    750.917     92.000     4.4096  30.644368    32.2814    25.5831 0.0000e+00
    755.119     91.000     4.4112  30.643315    32.2792    25.5811 0.0000e+00
    758.994     90.000     4.4140  30.642231    32.2757    25.5781 0.0000e+00
    762.549     89.000     4.4279  30.639769    32.2597    25.5640 0.0000e+00
    766.682     88.000     4.4543  30.640524    32.2353    25.5419 0.0000e+00
    769.783     87.000     4.4639  30.643251    32.2296    25.5364 0.0000e+00
    773.786     86.000     4.4699  30.644550    32.2258    25.5327 0.0000e+00
    777.441     85.000     4.4879  30.645116    32.2094    25.5178 0.0000e+00
    780.220     84.000     4.4990  30.642265    32.1958    25.5059 0.0000e+00
    784.374     83.000     4.5080  30.640383    32.1853    25.4967 0.0000e+00
    787.346     82.000     4.5140  30.640446    32.1800    25.4919 0.0000e+00
    790.957     81.000     4.5212  30.641457    32.1747    25.4869 0.0000e+00
    794.882     80.000     4.5323  30.641678    32.1647    25.4778 0.0000e+00
    798.131     79.000     4.5427  30.642456    32.1560    25.4698 0.0000e+00
    802.847     78.000     4.5550  30.646300    32.1490    25.4630 0.0000e+00
    806.022     77.000     4.5573  30.647469    32.1486    25.4624 0.0000e+00
    811.333     76.000     4.5614  30.649625    32.1476    25.4612 0.0000e+00
    814.289     75.000     4.5671  30.652220    32.1456    25.4590 0.0000e+00
    818.452     74.000     4.5693  30.652799    32.1446    25.4580 0.0000e+00
    822.510     73.000     4.5717  30.653698    32.1438    25.4571 0.0000e+00
    825.346     72.000     4.5758  30.655805    32.1428    25.4559 0.0000e+00
    829.924     71.000     4.5815  30.658856    32.1413    25.4541 0.0000e+00
    832.652     70.000     4.5810  30.658188    32.1415    25.4543 0.0000e+00
    836.805     69.000     4.5823  30.657877    32.1404    25.4533 0.0000e+00
    839.872     68.000     4.5830  30.657394    32.1396    25.4526 0.0000e+00
    843.939     67.000     4.5852  30.656660    32.1372    25.4504 0.0000e+00
    847.585     66.000     4.5869  30.655971    32.1352    25.4487 0.0000e+00
    851.396     65.000     4.5897  30.655259    32.1322    25.4460 0.0000e+00
    855.320     64.000     4.5914  30.654738    32.1304    25.4444 0.0000e+00
    860.190     63.000     4.5967  30.654114    32.1250    25.4396 0.0000e+00
    865.315     62.000     4.5994  30.653596    32.1223    25.4372 0.0000e+00
    870.799     61.000     4.6006  30.652899    32.1209    25.4359 0.0000e+00
    875.312     60.000     4.6013  30.652133    32.1198    25.4350 0.0000e+00
    879.214     59.000     4.6019  30.651296    32.1187    25.4341 0.0000e+00
    883.944     58.000     4.6048  30.649283    32.1141    25.4301 0.0000e+00
    888.898     57.000     4.6054  30.646675    32.1110    25.4276 0.0000e+00
    894.718     56.000     4.6075  30.643262    32.1055    25.4230 0.0000e+00
    900.353     55.000     4.6112  30.639247    32.0978    25.4165 0.0000e+00
    904.727     54.000     4.6176  30.636591    32.0890    25.4088 0.0000e+00
    909.723     53.000     4.6223  30.632704    32.0804    25.4016 0.0000e+00
    915.722     52.000     4.6276  30.628244    32.0706    25.3932 0.0000e+00
    920.994     51.000     4.6356  30.623740    32.0582    25.3825 0.0000e+00
    927.374     50.000     4.6376  30.617041    32.0490    25.3750 0.0000e+00
    934.514     49.000     4.6415  30.605647    32.0325    25.3616 0.0000e+00
    941.853     48.000     4.6543  30.606133    32.0212    25.3512 0.0000e+00
    948.793     47.000     4.6517  30.591614    32.0074    25.3406 0.0000e+00
    954.660     46.000     4.6509  30.580355    31.9957    25.3313 0.0000e+00
    960.557     45.000     4.6529  30.560843    31.9717    25.3121 0.0000e+00
    967.702     44.000     4.6504  30.544768    31.9560    25.2999 0.0000e+00
    976.282     43.000     4.6457  30.527284    31.9408    25.2884 0.0000e+00
    983.451     42.000     4.6425  30.514514    31.9296    25.2798 0.0000e+00
    989.968     41.000     4.6414  30.510185    31.9261    25.2772 0.0000e+00
    997.328     40.000     4.6361  30.494163    31.9132    25.2675 0.0000e+00
   1002.598     39.000     4.6354  30.491830    31.9117    25.2664 0.0000e+00
   1007.472     38.000     4.6352  30.491028    31.9114    25.2662 0.0000e+00
   1012.813     37.000     4.6336  30.486656    31.9084    25.2640 0.0000e+00
   1016.924     36.000     4.6332  30.485476    31.9079    25.2636 0.0000e+00
   1021.541     35.000     4.6314  30.481367    31.9054    25.2618 0.0000e+00
   1025.368     34.000     4.6295  30.477026    31.9027    25.2599 0.0000e+00
   1029.816     33.000     4.6296  30.477135    31.9033    25.2603 0.0000e+00
   1034.061     32.000     4.6275  30.472603    31.9005    25.2583 0.0000e+00
   1037.824     31.000     4.6267  30.470573    31.8995    25.2576 0.0000e+00
   1041.237     30.000     4.6249  30.466491    31.8970    25.2558 0.0000e+00
   1045.050     29.000     4.6153  30.442783    31.8793    25.2427 0.0000e+00
   1047.834     28.000     4.6046  30.405145    31.8465    25.2179 0.0000e+00
   1051.083     27.000     4.6007  30.387869    31.8307    25.2058 0.0000e+00
   1054.163     26.000     4.5993  30.378781    31.8221    25.1990 0.0000e+00
   1057.075     25.000     4.5978  30.371389    31.8155    25.1939 0.0000e+00
   1060.056     24.000     4.5967  30.365345    31.8100    25.1897 0.0000e+00
   1063.027     23.000     4.5958  30.359096    31.8041    25.1852 0.0000e+00
   1066.144     22.000     4.5956  30.355219    31.8003    25.1822 0.0000e+00
   1069.297     21.000     4.5961  30.351241    31.7958    25.1785 0.0000e+00
   1072.030     20.000     4.5963  30.345704    31.7896    25.1736 0.0000e+00
   1075.553     19.000     4.5964  30.342272    31.7861    25.1708 0.0000e+00
   1078.198     18.000     4.5963  30.339424    31.7834    25.1686 0.0000e+00
   1082.089     17.000     4.5963  30.335029    31.7788    25.1650 0.0000e+00
   1084.862     16.000     4.5996  30.327043    31.7669    25.1552 0.0000e+00
   1088.848     15.000     4.6049  30.322631    31.7572    25.1470 0.0000e+00
   1091.739     14.000     4.6172  30.320935    31.7439    25.1352 0.0000e+00
   1095.483     13.000     4.6565  30.328856    31.7159    25.1089 0.0000e+00
   1098.815     12.000     4.6924  30.346483    31.7024    25.0944 0.0000e+00
   1102.578     11.000     4.7035  30.351358    31.6979    25.0897 0.0000e+00
   1105.960     10.000     4.7071  30.350592    31.6940    25.0863 0.0000e+00
   1109.761      9.000     4.7180  30.351159    31.6848    25.0778 0.0000e+00
   1113.637      8.000     4.7319  30.352392    31.6734    25.0673 0.0000e+00
   1117.020      7.000     4.7637  30.353088    31.6443    25.0409 0.0000e+00
   1120.434      6.000     4.7833  30.355952    31.6294    25.0271 0.0000e+00
   1124.312      5.000     4.8000  30.358949    31.6175    25.0158 0.0000e+00
   1127.763      4.000     4.8032  30.359844    31.6159    25.0143 0.0000e+00
   1131.614      3.000     4.8146  30.366258    31.6130    25.0107 0.0000e+00
   1135.129      2.000     4.8169  30.368625    31.6140    25.0113 0.0000e+00
   1140.175      1.000     4.8043  30.362238    31.6191    25.0167 0.0000e+00
