* Sea-Bird SBE 19plus Data File:
* FileName = C:\Sea-Bird Data\2014\DY1405\Casts\BON030.hex
* Software Version Seasave V 7.22.3
* Temperature SN = 4530
* Conductivity SN = 4530
* System UpLoad Time = May 11 2014 02:13:21
* Real-Time Sample Interval = 0.2500 seconds
* System UTC = May 11 2014 02:13:21
# nquan = 7                                 
# nvalues = 133                         
# units = specified
# name 0 = timeS: Time, Elapsed [seconds]
# name 1 = prdM: Pressure, Strain Gauge [db]
# name 2 = tv290C: Temperature [ITS-90, deg C]
# name 3 = c0mS/cm: Conductivity [mS/cm]
# name 4 = sal00: Salinity, Practical [PSU]
# name 5 = sigma-t00: Density [sigma-t, Kg/m^3 ]
# name 6 = flag: flag
# span 0 =     62.763,    474.252       
# span 1 =      1.000,     67.000       
# span 2 =     1.7875,     3.1280       
# span 3 =  22.267570,  29.613423       
# span 4 =    23.6680,    32.7438       
# span 5 =    18.8439,    26.1092       
# span 6 = 0.0000e+00, 0.0000e+00       
# interval = decibars: 1                
# start_time = May 11 2014 02:13:21 [System UTC, header]
# bad_flag = -9.990e-29
# <Sensors count="3" >
#   <sensor Channel="1" >
#     <!-- Count, Temperature -->
#     <TemperatureSensor SensorID="58" >
#       <SerialNumber>4530</SerialNumber>
#       <CalibrationDate>03-Dec-13</CalibrationDate>
#       <A0>1.22471000e-003</A0>
#       <A1>2.66234600e-004</A1>
#       <A2>-3.25282000e-007</A2>
#       <A3>1.63905300e-007</A3>
#       <Slope>1.00000000</Slope>
#       <Offset>0.0000</Offset>
#     </TemperatureSensor>
#   </sensor>
#   <sensor Channel="2" >
#     <!-- Frequency 0, Conductivity -->
#     <ConductivitySensor SensorID="3" >
#       <SerialNumber>4530</SerialNumber>
#       <CalibrationDate>03-Dec-13</CalibrationDate>
#       <UseG_J>1</UseG_J>
#       <!-- Cell const and series R are applicable only for wide range sensors. -->
#       <SeriesR>0.0000</SeriesR>
#       <CellConst>2000.0000</CellConst>
#       <ConductivityType>0</ConductivityType>
#       <Coefficients equation="0" >
#         <A>0.00000000e+000</A>
#         <B>0.00000000e+000</B>
#         <C>0.00000000e+000</C>
#         <D>0.00000000e+000</D>
#         <M>0.0</M>
#         <CPcor>-9.57000000e-008</CPcor>
#       </Coefficients>
#       <Coefficients equation="1" >
#         <G>-9.84131900e-001</G>
#         <H>1.41458700e-001</H>
#         <I>-1.92288200e-004</I>
#         <J>3.59848200e-005</J>
#         <CPcor>-9.57000000e-008</CPcor>
#         <CTcor>3.2500e-006</CTcor>
#         <!-- WBOTC not applicable unless ConductivityType = 1. -->
#         <WBOTC>0.00000000e+000</WBOTC>
#       </Coefficients>
#       <Slope>1.00000000</Slope>
#       <Offset>0.00000</Offset>
#     </ConductivitySensor>
#   </sensor>
#   <sensor Channel="3" >
#     <!-- Count, Pressure, Strain Gauge -->
#     <PressureSensor SensorID="46" >
#       <SerialNumber>4530</SerialNumber>
#       <CalibrationDate>02-Dec-13</CalibrationDate>
#       <PA0>-3.35712300e-001</PA0>
#       <PA1>1.56795400e-002</PA1>
#       <PA2>-6.60390500e-010</PA2>
#       <PTEMPA0>-6.74611800e+001</PTEMPA0>
#       <PTEMPA1>5.06446900e+001</PTEMPA1>
#       <PTEMPA2>-4.65162800e-001</PTEMPA2>
#       <PTCA0>5.24503600e+005</PTCA0>
#       <PTCA1>-3.17070100e-002</PTCA1>
#       <PTCA2>-4.70494400e-002</PTCA2>
#       <PTCB0>2.49031200e+001</PTCB0>
#       <PTCB1>-5.75000000e-004</PTCB1>
#       <PTCB2>0.00000000e+000</PTCB2>
#       <Offset>0.000000</Offset>
#     </PressureSensor>
#   </sensor>
# </Sensors>
# datcnv_date = May 12 2014 21:37:21, 7.22.2 [datcnv_vars = 4]
# datcnv_in = c:\data\seacat\current\bon030.hex c:\data\seacat\current\bon030.XMLCON
# datcnv_skipover = 0
# filter_date = May 12 2014 21:37:22, 7.22.2
# filter_in = c:\data\seacat\current\bon030.cnv
# filter_low_pass_tc_A = 0.500
# filter_low_pass_tc_B = 2.000
# filter_low_pass_A_vars = prdM tv290C c0mS/cm
# filter_low_pass_B_vars =
# alignctd_date = May 12 2014 21:37:22, 7.22.2
# alignctd_in = c:\data\seacat\current\bon030.cnv
# alignctd_adv = tv290C 0.500                                                                                                                                                                                                        
# wildedit_date = May 12 2014 21:37:22, 7.22.2
# wildedit_in = c:\data\seacat\current\bon030.cnv
# wildedit_pass1_nstd = 2.0
# wildedit_pass2_nstd = 15.0
# wildedit_pass2_mindelta = 1.000e-002
# wildedit_npoint = 100
# wildedit_vars = prdM tv290C c0mS/cm
# wildedit_excl_bad_scans = yes
# binavg_date = May 12 2014 21:37:22, 7.22.2
# binavg_in = c:\data\seacat\current\bon030.cnv
# binavg_bintype = decibars
# binavg_binsize = 1
# binavg_excl_bad_scans = yes
# binavg_skipover = 0
# binavg_surface_bin = no, min = 0.000, max = 0.500, value = 0.000
# Derive_date = May 12 2014 21:37:22, 7.22.2 [derive_vars = 2]
# Derive_in = c:\data\seacat\current\bon030.cnv c:\data\seacat\current\BON030.XMLcon
# file_type = ascii
*END*
     62.763      1.000     3.1280  22.267570    23.6680    18.8439 0.0000e+00
     64.201      2.000     2.8023  28.887573    31.8207    25.3642 0.0000e+00
     65.626      3.000     2.7930  29.453665    32.5188    25.9222 0.0000e+00
     68.529      4.000     2.8436  29.549880    32.5841    25.9702 0.0000e+00
     76.513      5.000     2.8376  29.574342    32.6195    25.9989 0.0000e+00
     78.738      6.000     2.9074  29.613423    32.5956    25.9740 0.0000e+00
     80.200      7.000     2.8679  29.589591    32.6062    25.9857 0.0000e+00
     82.388      8.000     2.9175  29.608220    32.5780    25.9590 0.0000e+00
     85.069      9.000     2.8278  29.600658    32.6594    26.0316 0.0000e+00
     86.370     10.000     2.7401  29.468463    32.5868    25.9809 0.0000e+00
     88.151     11.000     2.7140  29.500137    32.6515    26.0348 0.0000e+00
     90.973     12.000     2.6885  29.506358    32.6846    26.0633 0.0000e+00
     93.084     13.000     2.7060  29.569837    32.7438    26.1092 0.0000e+00
     95.390     14.000     2.7310  29.579090    32.7291    26.0953 0.0000e+00
     97.737     15.000     2.7426  29.594554    32.7356    26.0995 0.0000e+00
    100.559     16.000     2.7100  29.550725    32.7148    26.0856 0.0000e+00
    102.266     17.000     2.5596  29.352532    32.6250    26.0262 0.0000e+00
    104.573     18.000     2.3264  29.000186    32.4287    25.8875 0.0000e+00
    106.921     19.000     2.2620  28.941659    32.4215    25.8867 0.0000e+00
    109.184     20.000     2.1768  28.873173    32.4231    25.8945 0.0000e+00
    110.688     21.000     2.0365  28.752170    32.4158    25.8990 0.0000e+00
    112.656     22.000     1.9248  28.655868    32.4097    25.9022 0.0000e+00
    115.277     23.000     1.8955  28.631517    32.4088    25.9036 0.0000e+00
    117.139     24.000     1.8741  28.612591    32.4066    25.9033 0.0000e+00
    119.067     25.000     1.8601  28.600858    32.4057    25.9036 0.0000e+00
    120.884     26.000     1.8518  28.594135    32.4053    25.9039 0.0000e+00
    122.821     27.000     1.8471  28.590464    32.4050    25.9039 0.0000e+00
    125.314     28.000     1.8450  28.589011    32.4048    25.9039 0.0000e+00
    127.384     29.000     1.8427  28.587317    32.4045    25.9038 0.0000e+00
    128.883     30.000     1.8405  28.585960    32.4045    25.9040 0.0000e+00
    131.461     31.000     1.8399  28.585796    32.4043    25.9039 0.0000e+00
    133.904     32.000     1.8386  28.585065    32.4042    25.9039 0.0000e+00
    135.713     33.000     1.8369  28.584000    32.4041    25.9039 0.0000e+00
    137.546     34.000     1.8360  28.580816    32.4005    25.9011 0.0000e+00
    139.400     35.000     1.8361  28.577000    32.3950    25.8967 0.0000e+00
    141.919     36.000     1.8360  28.585374    32.4051    25.9048 0.0000e+00
    144.030     37.000     1.8354  28.585387    32.4051    25.9049 0.0000e+00
    145.744     38.000     1.8342  28.585071    32.4054    25.9052 0.0000e+00
    147.337     39.000     1.8331  28.585082    32.4060    25.9058 0.0000e+00
    149.848     40.000     1.8322  28.585462    32.4069    25.9065 0.0000e+00
    152.484     41.000     1.8310  28.585458    32.4076    25.9071 0.0000e+00
    153.759     42.000     1.8284  28.584511    32.4085    25.9081 0.0000e+00
    155.663     43.000     1.8261  28.583942    32.4096    25.9091 0.0000e+00
    158.579     44.000     1.8226  28.582578    32.4109    25.9104 0.0000e+00
    160.159     45.000     1.8184  28.580520    32.4121    25.9117 0.0000e+00
    161.706     46.000     1.8171  28.580185    32.4125    25.9121 0.0000e+00
    163.834     47.000     1.8154  28.579673    32.4130    25.9126 0.0000e+00
    165.938     48.000     1.8137  28.579052    32.4135    25.9131 0.0000e+00
    167.489     49.000     1.8103  28.577271    32.4142    25.9139 0.0000e+00
    169.496     50.000     1.8053  28.574330    32.4151    25.9150 0.0000e+00
    172.014     51.000     1.8033  28.573118    32.4151    25.9151 0.0000e+00
    173.353     52.000     1.8033  28.573576    32.4151    25.9151 0.0000e+00
    174.715     53.000     1.8006  28.571893    32.4152    25.9154 0.0000e+00
    177.315     54.000     1.7999  28.571816    32.4153    25.9155 0.0000e+00
    179.641     55.000     1.7989  28.571451    32.4153    25.9156 0.0000e+00
    180.874     56.000     1.7984  28.571467    32.4153    25.9156 0.0000e+00
    182.183     57.000     1.7989  28.572243    32.4152    25.9155 0.0000e+00
    184.336     58.000     1.7980  28.572095    32.4154    25.9157 0.0000e+00
    186.980     59.000     1.7951  28.570290    32.4156    25.9161 0.0000e+00
    188.483     60.000     1.7944  28.570130    32.4155    25.9161 0.0000e+00
    189.814     61.000     1.7936  28.570085    32.4157    25.9163 0.0000e+00
    191.384     62.000     1.7916  28.568913    32.4158    25.9165 0.0000e+00
    193.906     63.000     1.7895  28.567688    32.4158    25.9167 0.0000e+00
    196.129     64.000     1.7887  28.567570    32.4160    25.9168 0.0000e+00
    197.557     65.000     1.7892  28.568330    32.4159    25.9167 0.0000e+00
    198.906     66.000     1.7885  28.568205    32.4159    25.9168 0.0000e+00
    206.378     67.000     1.7875  28.567969    32.4161    25.9170 0.0000e+00
    212.994     66.000     1.7881  28.568026    32.4161    25.9170 0.0000e+00
    218.193     65.000     1.7880  28.567371    32.4159    25.9168 0.0000e+00
    220.914     64.000     1.7886  28.567442    32.4159    25.9168 0.0000e+00
    225.319     63.000     1.7903  28.568313    32.4158    25.9166 0.0000e+00
    228.146     62.000     1.7917  28.569025    32.4158    25.9165 0.0000e+00
    232.554     61.000     1.7907  28.567669    32.4157    25.9165 0.0000e+00
    235.528     60.000     1.7937  28.569591    32.4156    25.9162 0.0000e+00
    239.470     59.000     1.7955  28.570535    32.4154    25.9159 0.0000e+00
    243.409     58.000     1.7946  28.569441    32.4156    25.9161 0.0000e+00
    246.762     57.000     1.7979  28.571660    32.4155    25.9158 0.0000e+00
    251.372     56.000     1.7996  28.572636    32.4155    25.9157 0.0000e+00
    255.064     55.000     1.7999  28.572463    32.4155    25.9157 0.0000e+00
    258.431     54.000     1.7982  28.570847    32.4158    25.9161 0.0000e+00
    263.649     53.000     1.7985  28.570517    32.4156    25.9159 0.0000e+00
    266.790     52.000     1.8015  28.572297    32.4153    25.9154 0.0000e+00
    271.048     51.000     1.8020  28.572139    32.4152    25.9153 0.0000e+00
    274.030     50.000     1.8018  28.571660    32.4153    25.9154 0.0000e+00
    278.019     49.000     1.8005  28.570303    32.4155    25.9157 0.0000e+00
    280.783     48.000     1.8034  28.571397    32.4145    25.9146 0.0000e+00
    285.410     47.000     1.8222  28.583027    32.4103    25.9099 0.0000e+00
    288.175     46.000     1.8223  28.582353    32.4099    25.9096 0.0000e+00
    292.495     45.000     1.8246  28.583157    32.4090    25.9088 0.0000e+00
    295.599     44.000     1.8244  28.582727    32.4093    25.9090 0.0000e+00
    299.373     43.000     1.8254  28.582706    32.4088    25.9085 0.0000e+00
    303.554     42.000     1.8262  28.582469    32.4082    25.9080 0.0000e+00
    306.529     41.000     1.8296  28.583581    32.4066    25.9065 0.0000e+00
    311.234     40.000     1.8329  28.584516    32.4050    25.9049 0.0000e+00
    314.040     39.000     1.8336  28.584092    32.4043    25.9043 0.0000e+00
    318.689     38.000     1.8339  28.583514    32.4038    25.9039 0.0000e+00
    321.685     37.000     1.8344  28.583334    32.4036    25.9037 0.0000e+00
    325.855     36.000     1.8356  28.583582    32.4032    25.9033 0.0000e+00
    329.492     35.000     1.8369  28.583850    32.4028    25.9029 0.0000e+00
    332.970     34.000     1.8376  28.583873    32.4026    25.9027 0.0000e+00
    336.330     33.000     1.8399  28.585078    32.4023    25.9023 0.0000e+00
    339.753     32.000     1.8422  28.586311    32.4021    25.9020 0.0000e+00
    343.050     31.000     1.8470  28.589328    32.4015    25.9011 0.0000e+00
    346.298     30.000     1.8509  28.591883    32.4012    25.9006 0.0000e+00
    350.248     29.000     1.8550  28.594602    32.4010    25.9002 0.0000e+00
    352.771     28.000     1.8701  28.606834    32.4013    25.8994 0.0000e+00
    356.578     27.000     1.8814  28.615611    32.4012    25.8985 0.0000e+00
    359.147     26.000     1.8908  28.623157    32.4015    25.8981 0.0000e+00
    362.440     25.000     1.9028  28.632815    32.4018    25.8975 0.0000e+00
    366.309     24.000     1.9544  28.675910    32.4033    25.8949 0.0000e+00
    370.400     23.000     2.0696  28.772904    32.4066    25.8892 0.0000e+00
    374.055     22.000     2.2010  28.884644    32.4115    25.8834 0.0000e+00
    378.037     21.000     2.2404  28.918033    32.4132    25.8817 0.0000e+00
    381.728     20.000     2.2428  28.920266    32.4141    25.8822 0.0000e+00
    385.383     19.000     2.2466  28.923097    32.4142    25.8821 0.0000e+00
    389.485     18.000     2.2553  28.930098    32.4146    25.8817 0.0000e+00
    393.681     17.000     2.2606  28.934272    32.4149    25.8815 0.0000e+00
    398.217     16.000     2.2650  28.937449    32.4148    25.8812 0.0000e+00
    402.448     15.000     2.2672  28.939006    32.4151    25.8812 0.0000e+00
    407.306     14.000     2.2736  28.943710    32.4149    25.8806 0.0000e+00
    411.279     13.000     2.3008  28.965747    32.4149    25.8785 0.0000e+00
    415.713     12.000     2.3383  28.994621    32.4129    25.8740 0.0000e+00
    420.155     11.000     2.3765  29.022731    32.4092    25.8681 0.0000e+00
    425.299     10.000     2.4730  29.096610    32.4026    25.8553 0.0000e+00
    429.706      9.000     2.5660  29.168197    32.3967    25.8432 0.0000e+00
    435.216      8.000     2.6154  29.206563    32.3941    25.8372 0.0000e+00
    439.480      7.000     2.6627  29.243725    32.3922    25.8319 0.0000e+00
    445.209      6.000     2.6939  29.268083    32.3910    25.8283 0.0000e+00
    448.659      5.000     2.7063  29.277902    32.3910    25.8273 0.0000e+00
    452.694      4.000     2.7079  29.278957    32.3912    25.8273 0.0000e+00
    457.207      3.000     2.7118  29.281800    32.3912    25.8271 0.0000e+00
    462.125      2.000     2.7226  29.290288    32.3912    25.8262 0.0000e+00
    474.252      1.000     2.7247  29.042635    32.0874    25.5834 0.0000e+00
