* Sea-Bird SBE 19plus Data File:
* FileName = C:\Sea-Bird Data\2014\DY1405\Casts\BON045.hex
* Software Version Seasave V 7.22.3
* Temperature SN = 4530
* Conductivity SN = 4530
* System UpLoad Time = May 16 2014 03:09:00
* Real-Time Sample Interval = 0.2500 seconds
* System UTC = May 16 2014 03:09:00
# nquan = 7                                 
# nvalues = 203                         
# units = specified
# name 0 = timeS: Time, Elapsed [seconds]
# name 1 = prdM: Pressure, Strain Gauge [db]
# name 2 = tv290C: Temperature [ITS-90, deg C]
# name 3 = c0mS/cm: Conductivity [mS/cm]
# name 4 = sal00: Salinity, Practical [PSU]
# name 5 = sigma-t00: Density [sigma-t, Kg/m^3 ]
# name 6 = flag: flag
# span 0 =    207.904,    835.510       
# span 1 =      1.000,    102.000       
# span 2 =     4.3052,     6.6709       
# span 3 =  22.456952,  32.799256       
# span 4 =    21.5277,    32.8798       
# span 5 =    16.8702,    26.0447       
# span 6 = 0.0000e+00, 0.0000e+00       
# interval = decibars: 1                
# start_time = May 16 2014 03:09:00 [System UTC, header]
# bad_flag = -9.990e-29
# <Sensors count="3" >
#   <sensor Channel="1" >
#     <!-- Count, Temperature -->
#     <TemperatureSensor SensorID="58" >
#       <SerialNumber>4530</SerialNumber>
#       <CalibrationDate>03-Dec-13</CalibrationDate>
#       <A0>1.22471000e-003</A0>
#       <A1>2.66234600e-004</A1>
#       <A2>-3.25282000e-007</A2>
#       <A3>1.63905300e-007</A3>
#       <Slope>1.00000000</Slope>
#       <Offset>0.0000</Offset>
#     </TemperatureSensor>
#   </sensor>
#   <sensor Channel="2" >
#     <!-- Frequency 0, Conductivity -->
#     <ConductivitySensor SensorID="3" >
#       <SerialNumber>4530</SerialNumber>
#       <CalibrationDate>03-Dec-13</CalibrationDate>
#       <UseG_J>1</UseG_J>
#       <!-- Cell const and series R are applicable only for wide range sensors. -->
#       <SeriesR>0.0000</SeriesR>
#       <CellConst>2000.0000</CellConst>
#       <ConductivityType>0</ConductivityType>
#       <Coefficients equation="0" >
#         <A>0.00000000e+000</A>
#         <B>0.00000000e+000</B>
#         <C>0.00000000e+000</C>
#         <D>0.00000000e+000</D>
#         <M>0.0</M>
#         <CPcor>-9.57000000e-008</CPcor>
#       </Coefficients>
#       <Coefficients equation="1" >
#         <G>-9.84131900e-001</G>
#         <H>1.41458700e-001</H>
#         <I>-1.92288200e-004</I>
#         <J>3.59848200e-005</J>
#         <CPcor>-9.57000000e-008</CPcor>
#         <CTcor>3.2500e-006</CTcor>
#         <!-- WBOTC not applicable unless ConductivityType = 1. -->
#         <WBOTC>0.00000000e+000</WBOTC>
#       </Coefficients>
#       <Slope>1.00000000</Slope>
#       <Offset>0.00000</Offset>
#     </ConductivitySensor>
#   </sensor>
#   <sensor Channel="3" >
#     <!-- Count, Pressure, Strain Gauge -->
#     <PressureSensor SensorID="46" >
#       <SerialNumber>4530</SerialNumber>
#       <CalibrationDate>02-Dec-13</CalibrationDate>
#       <PA0>-3.35712300e-001</PA0>
#       <PA1>1.56795400e-002</PA1>
#       <PA2>-6.60390500e-010</PA2>
#       <PTEMPA0>-6.74611800e+001</PTEMPA0>
#       <PTEMPA1>5.06446900e+001</PTEMPA1>
#       <PTEMPA2>-4.65162800e-001</PTEMPA2>
#       <PTCA0>5.24503600e+005</PTCA0>
#       <PTCA1>-3.17070100e-002</PTCA1>
#       <PTCA2>-4.70494400e-002</PTCA2>
#       <PTCB0>2.49031200e+001</PTCB0>
#       <PTCB1>-5.75000000e-004</PTCB1>
#       <PTCB2>0.00000000e+000</PTCB2>
#       <Offset>0.000000</Offset>
#     </PressureSensor>
#   </sensor>
# </Sensors>
# datcnv_date = May 17 2014 01:02:06, 7.22.2 [datcnv_vars = 4]
# datcnv_in = c:\data\seacat\current\bon045.hex c:\data\seacat\current\bon045.XMLCON
# datcnv_skipover = 0
# filter_date = May 17 2014 01:02:06, 7.22.2
# filter_in = c:\data\seacat\current\bon045.cnv
# filter_low_pass_tc_A = 0.500
# filter_low_pass_tc_B = 2.000
# filter_low_pass_A_vars = prdM tv290C c0mS/cm
# filter_low_pass_B_vars =
# alignctd_date = May 17 2014 01:02:06, 7.22.2
# alignctd_in = c:\data\seacat\current\bon045.cnv
# alignctd_adv = tv290C 0.500                                                                                                                                                                                                        
# wildedit_date = May 17 2014 01:02:06, 7.22.2
# wildedit_in = c:\data\seacat\current\bon045.cnv
# wildedit_pass1_nstd = 2.0
# wildedit_pass2_nstd = 15.0
# wildedit_pass2_mindelta = 1.000e-002
# wildedit_npoint = 100
# wildedit_vars = prdM tv290C c0mS/cm
# wildedit_excl_bad_scans = yes
# binavg_date = May 17 2014 01:02:06, 7.22.2
# binavg_in = c:\data\seacat\current\bon045.cnv
# binavg_bintype = decibars
# binavg_binsize = 1
# binavg_excl_bad_scans = yes
# binavg_skipover = 0
# binavg_surface_bin = no, min = 0.000, max = 0.500, value = 0.000
# Derive_date = May 17 2014 01:02:06, 7.22.2 [derive_vars = 2]
# Derive_in = c:\data\seacat\current\bon045.cnv c:\data\seacat\current\BON045.XMLcon
# file_type = ascii
*END*
    207.904      1.000     6.5869  22.456952    21.5277    16.8702 0.0000e+00
    209.824      2.000     6.6709  32.799256    32.5840    25.5593 0.0000e+00
    214.338      3.000     6.6650  32.618765    32.3904    25.4075 0.0000e+00
    219.941      4.000     6.6547  32.629446    32.4114    25.4254 0.0000e+00
    221.774      5.000     6.6504  32.625238    32.4104    25.4252 0.0000e+00
    223.749      6.000     6.6314  32.617624    32.4195    25.4348 0.0000e+00
    225.706      7.000     6.5812  32.615937    32.4648    25.4770 0.0000e+00
    227.703      8.000     6.5675  32.608990    32.4697    25.4826 0.0000e+00
    229.933      9.000     6.5604  32.607280    32.4741    25.4870 0.0000e+00
    232.297     10.000     6.5280  32.608816    32.5061    25.5164 0.0000e+00
    234.654     11.000     6.4901  32.606646    32.5393    25.5474 0.0000e+00
    237.069     12.000     6.4258  32.606872    32.6005    25.6038 0.0000e+00
    239.328     13.000     6.3945  32.600961    32.6234    25.6259 0.0000e+00
    241.397     14.000     6.2925  32.597821    32.7173    25.7129 0.0000e+00
    243.514     15.000     6.2060  32.591839    32.7936    25.7839 0.0000e+00
    245.569     16.000     6.0911  32.569944    32.8798    25.8662 0.0000e+00
    247.610     17.000     5.6641  32.058103    32.7182    25.7904 0.0000e+00
    249.736     18.000     5.2186  31.453317    32.4633    25.6402 0.0000e+00
    251.718     19.000     5.1368  31.388984    32.4687    25.6537 0.0000e+00
    253.666     20.000     5.0988  31.360085    32.4721    25.6606 0.0000e+00
    255.643     21.000     5.0686  31.357651    32.4983    25.6847 0.0000e+00
    257.750     22.000     5.0068  31.334528    32.5315    25.7179 0.0000e+00
    259.802     23.000     4.9725  31.317461    32.5449    25.7323 0.0000e+00
    261.780     24.000     4.9622  31.323104    32.5610    25.7461 0.0000e+00
    263.762     25.000     4.9445  31.317545    32.5714    25.7563 0.0000e+00
    265.836     26.000     4.9177  31.311344    32.5900    25.7740 0.0000e+00
    267.773     27.000     4.8786  31.290642    32.6040    25.7894 0.0000e+00
    269.724     28.000     4.8404  31.265476    32.6119    25.7998 0.0000e+00
    271.837     29.000     4.8071  31.244633    32.6201    25.8099 0.0000e+00
    273.925     30.000     4.7752  31.222313    32.6251    25.8173 0.0000e+00
    275.937     31.000     4.7330  31.189438    32.6281    25.8242 0.0000e+00
    277.911     32.000     4.7187  31.180398    32.6312    25.8282 0.0000e+00
    279.907     33.000     4.7187  31.184513    32.6355    25.8316 0.0000e+00
    282.016     34.000     4.7328  31.202040    32.6414    25.8348 0.0000e+00
    284.066     35.000     4.7425  31.213489    32.6446    25.8363 0.0000e+00
    286.036     36.000     4.7375  31.213122    32.6486    25.8400 0.0000e+00
    288.040     37.000     4.7123  31.198177    32.6556    25.8482 0.0000e+00
    290.125     38.000     4.6936  31.187574    32.6612    25.8547 0.0000e+00
    292.250     39.000     4.6818  31.181530    32.6653    25.8592 0.0000e+00
    294.380     40.000     4.6759  31.179715    32.6685    25.8624 0.0000e+00
    296.561     41.000     4.6671  31.176058    32.6725    25.8665 0.0000e+00
    298.690     42.000     4.6669  31.183799    32.6811    25.8734 0.0000e+00
    300.651     43.000     4.6786  31.207307    32.6963    25.8842 0.0000e+00
    302.692     44.000     4.6824  31.215961    32.7021    25.8883 0.0000e+00
    304.821     45.000     4.6762  31.212889    32.7042    25.8906 0.0000e+00
    306.798     46.000     4.6443  31.186615    32.7047    25.8944 0.0000e+00
    308.872     47.000     4.6186  31.168993    32.7091    25.9007 0.0000e+00
    310.922     48.000     4.6097  31.165371    32.7132    25.9049 0.0000e+00
    312.895     49.000     4.5774  31.139382    32.7144    25.9093 0.0000e+00
    314.916     50.000     4.5081  31.078197    32.7113    25.9141 0.0000e+00
    316.994     51.000     4.4656  31.043282    32.7122    25.9192 0.0000e+00
    319.121     52.000     4.4213  31.005126    32.7111    25.9230 0.0000e+00
    321.206     53.000     4.3956  30.984779    32.7123    25.9266 0.0000e+00
    323.127     54.000     4.4119  31.004015    32.7181    25.9295 0.0000e+00
    325.091     55.000     4.4249  31.017513    32.7204    25.9300 0.0000e+00
    327.249     56.000     4.4371  31.030219    32.7226    25.9305 0.0000e+00
    329.260     57.000     4.4426  31.036231    32.7237    25.9308 0.0000e+00
    331.244     58.000     4.4477  31.042842    32.7258    25.9319 0.0000e+00
    333.335     59.000     4.4507  31.046551    32.7267    25.9323 0.0000e+00
    335.380     60.000     4.4572  31.054069    32.7285    25.9331 0.0000e+00
    337.416     61.000     4.4637  31.061131    32.7298    25.9334 0.0000e+00
    339.486     62.000     4.4711  31.069098    32.7312    25.9338 0.0000e+00
    341.596     63.000     4.4864  31.085501    32.7346    25.9349 0.0000e+00
    343.627     64.000     4.4931  31.093212    32.7365    25.9356 0.0000e+00
    345.677     65.000     4.4974  31.100557    32.7403    25.9382 0.0000e+00
    347.708     66.000     4.4993  31.105765    32.7439    25.9409 0.0000e+00
    349.737     67.000     4.5017  31.109900    32.7459    25.9422 0.0000e+00
    351.779     68.000     4.5001  31.110034    32.7471    25.9433 0.0000e+00
    353.849     69.000     4.4982  31.110365    32.7488    25.9449 0.0000e+00
    355.936     70.000     4.5089  31.124311    32.7540    25.9479 0.0000e+00
    357.951     71.000     4.4965  31.115712    32.7557    25.9506 0.0000e+00
    359.937     72.000     4.4656  31.090110    32.7560    25.9540 0.0000e+00
    362.042     73.000     4.4395  31.067384    32.7549    25.9559 0.0000e+00
    364.153     74.000     4.3985  31.029547    32.7509    25.9570 0.0000e+00
    366.153     75.000     4.3770  31.010750    32.7498    25.9583 0.0000e+00
    368.232     76.000     4.3716  31.007914    32.7513    25.9601 0.0000e+00
    370.340     77.000     4.3743  31.013417    32.7546    25.9624 0.0000e+00
    372.444     78.000     4.3788  31.022859    32.7606    25.9667 0.0000e+00
    374.477     79.000     4.3760  31.024871    32.7652    25.9707 0.0000e+00
    376.602     80.000     4.3868  31.039939    32.7716    25.9746 0.0000e+00
    378.750     81.000     4.3964  31.052979    32.7768    25.9777 0.0000e+00
    380.957     82.000     4.3970  31.056988    32.7804    25.9805 0.0000e+00
    383.027     83.000     4.3967  31.059438    32.7830    25.9826 0.0000e+00
    385.014     84.000     4.3961  31.061707    32.7857    25.9849 0.0000e+00
    387.168     85.000     4.3926  31.062217    32.7893    25.9881 0.0000e+00
    389.319     86.000     4.3799  31.056410    32.7946    25.9936 0.0000e+00
    391.453     87.000     4.3579  31.041318    32.7984    25.9989 0.0000e+00
    393.568     88.000     4.3342  31.022330    32.7992    26.0020 0.0000e+00
    395.657     89.000     4.3245  31.015388    32.8002    26.0038 0.0000e+00
    397.819     90.000     4.3253  31.017904    32.8019    26.0050 0.0000e+00
    399.993     91.000     4.3212  31.015997    32.8032    26.0065 0.0000e+00
    402.116     92.000     4.3114  31.009940    32.8054    26.0092 0.0000e+00
    404.383     93.000     4.3081  31.011324    32.8098    26.0130 0.0000e+00
    406.570     94.000     4.3122  31.018872    32.8140    26.0160 0.0000e+00
    408.741     95.000     4.3149  31.022947    32.8156    26.0169 0.0000e+00
    410.776     96.000     4.3213  31.030210    32.8172    26.0176 0.0000e+00
    412.825     97.000     4.3320  31.042739    32.8207    26.0192 0.0000e+00
    414.846     98.000     4.3402  31.052952    32.8239    26.0210 0.0000e+00
    416.771     99.000     4.3436  31.058064    32.8260    26.0223 0.0000e+00
    418.706    100.000     4.3513  31.071961    32.8341    26.0279 0.0000e+00
    420.872    101.000     4.3603  31.089821    32.8455    26.0360 0.0000e+00
    424.871    102.000     4.3668  31.105854    32.8573    26.0447 0.0000e+00
    429.987    101.000     4.3662  31.101691    32.8535    26.0418 0.0000e+00
    433.614    100.000     4.3575  31.083953    32.8419    26.0335 0.0000e+00
    436.140     99.000     4.3479  31.066254    32.8313    26.0261 0.0000e+00
    438.786     98.000     4.3402  31.053719    32.8248    26.0217 0.0000e+00
    441.570     97.000     4.3350  31.047462    32.8232    26.0209 0.0000e+00
    444.172     96.000     4.3256  31.037492    32.8214    26.0205 0.0000e+00
    446.961     95.000     4.3139  31.023766    32.8175    26.0186 0.0000e+00
    449.718     94.000     4.3118  31.018548    32.8140    26.0160 0.0000e+00
    452.641     93.000     4.3083  31.009484    32.8074    26.0111 0.0000e+00
    455.481     92.000     4.3052  31.003575    32.8041    26.0088 0.0000e+00
    458.485     91.000     4.3259  31.020446    32.8037    26.0064 0.0000e+00
    462.003     90.000     4.3476  31.039350    32.8048    26.0050 0.0000e+00
    465.577     89.000     4.3800  31.066052    32.8043    26.0013 0.0000e+00
    468.732     88.000     4.3788  31.058285    32.7969    25.9955 0.0000e+00
    472.167     87.000     4.3864  31.059848    32.7917    25.9906 0.0000e+00
    475.314     86.000     4.3924  31.061314    32.7879    25.9870 0.0000e+00
    478.680     85.000     4.3960  31.060495    32.7839    25.9834 0.0000e+00
    481.873     84.000     4.3903  31.050665    32.7786    25.9798 0.0000e+00
    485.367     83.000     4.3818  31.038056    32.7728    25.9761 0.0000e+00
    488.902     82.000     4.3756  31.028303    32.7681    25.9730 0.0000e+00
    492.358     81.000     4.3780  31.029189    32.7673    25.9721 0.0000e+00
    496.011     80.000     4.3831  31.031382    32.7653    25.9700 0.0000e+00
    499.710     79.000     4.4091  31.051272    32.7632    25.9656 0.0000e+00
    503.380     78.000     4.4602  31.091082    32.7594    25.9573 0.0000e+00
    507.113     77.000     4.4722  31.099779    32.7582    25.9551 0.0000e+00
    510.918     76.000     4.4818  31.105927    32.7563    25.9526 0.0000e+00
    514.945     75.000     4.4878  31.109080    32.7546    25.9506 0.0000e+00
    518.881     74.000     4.4862  31.106723    32.7539    25.9502 0.0000e+00
    523.129     73.000     4.4817  31.101608    32.7529    25.9499 0.0000e+00
    526.987     72.000     4.4726  31.089931    32.7489    25.9476 0.0000e+00
    531.105     71.000     4.4599  31.072249    32.7414    25.9430 0.0000e+00
    535.071     70.000     4.4572  31.068023    32.7396    25.9419 0.0000e+00
    539.182     69.000     4.4561  31.066411    32.7393    25.9418 0.0000e+00
    543.541     68.000     4.4544  31.063396    32.7380    25.9409 0.0000e+00
    547.718     67.000     4.4518  31.060324    32.7375    25.9408 0.0000e+00
    552.070     66.000     4.4490  31.057072    32.7370    25.9407 0.0000e+00
    556.205     65.000     4.4455  31.053280    32.7366    25.9407 0.0000e+00
    560.239     64.000     4.4347  31.041379    32.7339    25.9397 0.0000e+00
    564.398     63.000     4.4210  31.026662    32.7309    25.9387 0.0000e+00
    568.156     62.000     4.4062  31.011176    32.7280    25.9380 0.0000e+00
    572.442     61.000     4.3815  30.983842    32.7211    25.9350 0.0000e+00
    577.207     60.000     4.3717  30.971923    32.7174    25.9331 0.0000e+00
    582.508     59.000     4.3671  30.962940    32.7120    25.9293 0.0000e+00
    587.777     58.000     4.3922  30.982058    32.7099    25.9251 0.0000e+00
    592.187     57.000     4.4317  31.015121    32.7099    25.9209 0.0000e+00
    596.777     56.000     4.4784  31.056494    32.7123    25.9180 0.0000e+00
    601.794     55.000     4.5420  31.110132    32.7123    25.9114 0.0000e+00
    607.156     54.000     4.5764  31.136091    32.7090    25.9051 0.0000e+00
    613.102     53.000     4.5833  31.139814    32.7070    25.9028 0.0000e+00
    618.666     52.000     4.6015  31.155323    32.7076    25.9013 0.0000e+00
    624.313     51.000     4.6083  31.160821    32.7077    25.9007 0.0000e+00
    630.016     50.000     4.6504  31.195695    32.7071    25.8958 0.0000e+00
    635.896     49.000     4.6575  31.200144    32.7058    25.8939 0.0000e+00
    641.635     48.000     4.6661  31.205722    32.7043    25.8918 0.0000e+00
    647.278     47.000     4.6696  31.208243    32.7043    25.8914 0.0000e+00
    652.727     46.000     4.6758  31.213098    32.7043    25.8908 0.0000e+00
    657.816     45.000     4.6804  31.216669    32.7044    25.8904 0.0000e+00
    663.007     44.000     4.6772  31.211004    32.7015    25.8884 0.0000e+00
    667.684     43.000     4.6597  31.185612    32.6898    25.8810 0.0000e+00
    672.508     42.000     4.6597  31.181989    32.6861    25.8781 0.0000e+00
    676.840     41.000     4.6657  31.183148    32.6821    25.8742 0.0000e+00
    680.917     40.000     4.6705  31.184433    32.6793    25.8715 0.0000e+00
    685.223     39.000     4.6767  31.185715    32.6752    25.8676 0.0000e+00
    689.384     38.000     4.6820  31.186134    32.6710    25.8637 0.0000e+00
    693.895     37.000     4.6866  31.186385    32.6672    25.8602 0.0000e+00
    699.196     36.000     4.6970  31.189850    32.6615    25.8546 0.0000e+00
    703.871     35.000     4.7120  31.192312    32.6501    25.8439 0.0000e+00
    708.420     34.000     4.7071  31.185046    32.6470    25.8420 0.0000e+00
    712.609     33.000     4.7029  31.179650    32.6454    25.8412 0.0000e+00
    716.681     32.000     4.7056  31.176961    32.6401    25.8367 0.0000e+00
    720.834     31.000     4.7275  31.187608    32.6314    25.8274 0.0000e+00
    724.835     30.000     4.7683  31.215393    32.6239    25.8171 0.0000e+00
    728.311     29.000     4.8116  31.243301    32.6141    25.8047 0.0000e+00
    731.955     28.000     4.8331  31.257122    32.6095    25.7987 0.0000e+00
    734.950     27.000     4.8439  31.263642    32.6069    25.7954 0.0000e+00
    737.766     26.000     4.8762  31.285754    32.6012    25.7874 0.0000e+00
    740.699     25.000     4.9125  31.311093    32.5953    25.7788 0.0000e+00
    744.139     24.000     4.9317  31.322037    32.5896    25.7722 0.0000e+00
    747.767     23.000     4.9718  31.337363    32.5685    25.7510 0.0000e+00
    751.445     22.000     5.0114  31.359569    32.5558    25.7366 0.0000e+00
    755.027     21.000     5.0105  31.343222    32.5384    25.7229 0.0000e+00
    758.369     20.000     5.0017  31.315481    32.5156    25.7058 0.0000e+00
    761.751     19.000     4.9819  31.271181    32.4845    25.6834 0.0000e+00
    765.300     18.000     5.0003  31.263023    32.4577    25.6601 0.0000e+00
    769.198     17.000     5.0747  31.311745    32.4417    25.6392 0.0000e+00
    772.979     16.000     5.1161  31.340477    32.4348    25.6291 0.0000e+00
    776.813     15.000     5.1480  31.368444    32.4363    25.6268 0.0000e+00
    780.633     14.000     5.2444  31.455450    32.4427    25.6210 0.0000e+00
    784.426     13.000     5.3421  31.536591    32.4410    25.6085 0.0000e+00
    788.144     12.000     5.4917  31.671123    32.4496    25.5981 0.0000e+00
    792.067     11.000     5.6038  31.767430    32.4509    25.5861 0.0000e+00
    795.934     10.000     5.7182  31.862832    32.4489    25.5710 0.0000e+00
    799.809      9.000     5.8125  31.945995    32.4523    25.5625 0.0000e+00
    803.766      8.000     5.8807  32.006886    32.4556    25.5570 0.0000e+00
    807.802      7.000     5.9569  32.075036    32.4594    25.5507 0.0000e+00
    811.847      6.000     5.9959  32.109085    32.4607    25.5470 0.0000e+00
    816.039      5.000     6.0371  32.145159    32.4620    25.5430 0.0000e+00
    820.343      4.000     6.1146  32.212471    32.4635    25.5347 0.0000e+00
    825.107      3.000     6.3122  32.376409    32.4577    25.5055 0.0000e+00
    830.076      2.000     6.5909  32.605619    32.4466    25.4614 0.0000e+00
    835.510      1.000     6.6127  32.309072    32.0998    25.1853 0.0000e+00
